D. J. Segelstein, "The complex refractive index of water," University of
Missouri-Kansas City, (1981).

lambda	absorption
(nm)	(1/cm)
10	21928
11	27099
12	32972
13	39362
14	46442	
16	62502
18	81308
20	1.0279e+05
22	1.2732e+05
24	1.5453e+05
26	1.8453e+05
28	2.1779e+05
30	2.5409e+05
32	2.9308e+05
34	3.3577e+05
36	3.8185e+05
38	4.3067e+05
40	4.8204e+05
42	5.3822e+05
44	5.9701e+05
46	6.5903e+05
48	7.2459e+05
50	7.5348e+05
52	7.6196e+05
54	7.7099e+05
56	7.8523e+05
58	8.1094e+05
60	8.6297e+05
62	9.2473e+05
64	9.8869e+05
66	1.0185e+06
68	1.0399e+06
70	1.0399e+06
72	1.0234e+06
74	9.8631e+05
76	9.6838e+05
78	9.6383e+05
80	9.6392e+05
82	9.6377e+05
84	9.6594e+05
86	9.6157e+05
88	9.3969e+05
90	9.1199e+05
92	8.7913e+05
94	8.4141e+05
96	7.9244e+05
98	7.3794e+05
100	6.8235e+05
102	6.3816e+05
104	5.9557e+05
106	5.5854e+05
108	5.2234e+05
110	4.9202e+05
112	4.6582e+05
114	4.3960e+05
116	4.1483e+05
118	3.9456e+05
120	3.7689e+05
122	3.5978e+05
124	3.4352e+05
126	3.2140e+05
128	2.8257e+05
130	2.3122e+05
132	1.7789e+05
134	1.3964e+05
136	1.2308e+05
138	1.2949e+05
140	1.5062e+05
142	1.7065e+05
144	1.8924e+05
146	2.0749e+05
148	2.2439e+05
150	2.3223e+05
152	2.2902e+05
154	2.1034e+05
156	1.8833e+05
158	1.6072e+05
160	1.3116e+05
162	1.0467e+05
164	79564
166	54815
168	29923
170	2958.8
172	1462.4
174	852.67
175	602.54
180	41.876
185	0.84954
190	0.23943
195	0.11922
200	0.069178
205	0.041118
210	0.023013
215	0.011695
220	0.0072608
225	0.0064704
230	0.0060128
235	0.0057271
240	0.0054948
245	0.0050820
250	0.0046782
255	0.0042360
260	0.0038637
265	0.0035313
270	0.0031914
275	0.0028773
280	0.0025999
285	0.0023824
290	0.0020799
295	0.0018749
300	0.0017381
305	0.0015774
310	0.0014388
315	0.0013273
320	0.0012531
325	0.0011913
330	0.0011349
335	0.0010815
340	0.0010235
345	0.00096605
350	0.00090791
355	0.00085712
360	0.00080911
365	0.00076370
370	0.00071939
375	0.00068059
380	0.00064121
385	0.00060120
390	0.00056757
395	0.00052852
400	0.00049650
405	0.00046246
410	0.00043563
415	0.00040545
420	0.00037657
425	0.00034597
429	0.00031833
435	0.00029442
440	0.00026857
445	0.00024548
450	0.00022593
455	0.00021529
460	0.00020748
465	0.00020277
470	0.00019498
475	0.00018536
480	0.00018578
485	0.00018535
490	0.00018837
495	0.00019906
500	0.00023230
505	0.00026841
510	0.00031188
515	0.00035636
520	0.00037941
525	0.00039270
530	0.00041682
535	0.00044356
540	0.00048868
545	0.00052366
550	0.00055845
555	0.00060249
560	0.00064403
565	0.00069672
570	0.00075680
575	0.00083950
579	0.00096167
585	0.0011219
590	0.0013552
596	0.0016292
600	0.0020184
605	0.0023501
610	0.0025524
615	0.0027167
619	0.0028383
625	0.0029587
629	0.0029984
635	0.0030699
640	0.0030841
646	0.0031255
650	0.0032358
655	0.0034113
661	0.0036898
665	0.0038362
670	0.0039355
675	0.0040559
681	0.0042454
685	0.0045298
690	0.0048303
695	0.0053574
700	0.0060120
705	0.0073112
710	0.0088510
715	0.010544
719	0.012736
724	0.015850
729	0.019810
735	0.023063
740	0.024773
745	0.025818
750	0.026125
755	0.026294
760	0.026114
766	0.025770
769	0.024950
775	0.023981
780	0.022706
785	0.021429
791	0.020374
794	0.019902
800	0.019640
805	0.019815
809	0.020657
815	0.022335
820	0.024829
824	0.027737
830	0.030905
836	0.033732
840	0.036808
845	0.039990
849	0.043343
855	0.046336
859	0.048978
865	0.051515
871	0.054074
875	0.056111
879	0.057942
885	0.060113
889	0.062224
895	0.064867
900	0.067924
906	0.071455
910	0.078707
914	0.092052
920	0.11338
925	0.14405
929	0.18505
935	0.23792
940	0.29005
944	0.34035
951	0.38759
955	0.41976
959	0.43984
966	0.45057
971	0.45345
975	0.44852
980	0.43851
984	0.42603
991	0.41258
995	0.39527
1000	0.37699
1009	0.33477
1021	0.28948
1030	0.24413
1040	0.20420
1050	0.16983
1059	0.15414
1069	0.14800
1079	0.15478
1089	0.17297
1099	0.19530
1109	0.23093
1119	0.29512
1130	0.43026
1140	0.65599
1151	1.0160
1159	1.1591
1169	1.2040
1180	1.2353
1191	1.2461
1199	1.2566
1211	1.2359
1219	1.2154
1230	1.1851
1239	1.1552
1250	1.1058
1259	1.0770
1271	1.0777
1279	1.1191
1291	1.1885
1300	1.3533
1309	1.5734
1321	1.8188
1330	2.1268
1340	2.6718
1349	3.7699
1361	4.1595
1371	5.3199
1380	7.1045
1390	9.5830
1400	13.733
1409	22.653
1419	28.312
1429	31.113
1439	31.691
1449	31.542
1459	31.041
1469	28.974
1479	25.643
1489	22.441
1500	18.833
1510	16.295
1521	14.384
1531	13.149
1542	11.743
1549	10.936
1560	9.9886
1570	9.1246
1581	8.5127
1589	7.8609
1600	7.3411
1611	6.8674
1622	6.4381
1629	6.2454
1641	6.0519
1648	5.7883
1660	5.6004
1671	5.5680
1679	5.6096
1690	5.6519
1698	5.7303
1710	5.9157
1722	6.1372
1730	6.4648
1742	6.8603
1750	7.1808
1762	7.4956
1770	7.9516
1778	8.6155
1791	9.3318
1799	9.4929
1811	9.5132
1820	9.5283
1828	9.7479
1841	10.594
1849	12.648
1862	21.630
1871	34.986
1879	48.313
1888	61.374
1901	76.747
1910	110.40
1919	119.64
1932	125.01
1941	123.59
1950	119.09
1959	110.14
1968	98.845
1982	88.890
1991	78.895
2000	69.178
2009	61.950
2018	55.347
2028	49.881
2042	45.490
2051	41.308
2061	37.839
2070	34.755
2080	31.984
2089	29.380
2099	27.797
2109	26.235
2118	24.777
2128	23.444
2138	22.488
2148	21.675
2158	20.888
2168	20.322
2178	19.813
2188	19.499
2198	19.318
2208	19.276
2218	19.320
2228	19.504
2239	20.042
2249	20.892
2259	21.684
2270	22.592
2280	23.661
2291	24.716
2301	25.591
2312	26.731
2317	27.736
2328	29.311
2339	32.208
2350	34.036
2360	36.485
2371	39.363
2382	41.788
2388	44.666
2399	47.641
2410	51.642
2421	55.591
2432	59.422
2438	64.430
2449	69.169
2460	75.194
2472	80.319
2477	86.701
2489	91.383
2500	95.504
2512	97.699
2518	99.313
2529	100.22
2541	102.32
2553	105.43
2564	111.21
2570	113.00
2576	114.05
2582	116.17
2588	117.75
2594	119.95
2606	124.17
2612	130.04
2618	142.90
2624	158.13
2630	191.89
2636	207.99
2649	229.03
2655	254.07
2661	296.47
2667	345.14
2673	401.81
2679	492.05
2685	594.39
2698	675.83
2704	762.16
2710	862.95
2716	948.49
2723	1300.0
2729	1749.8
2742	2118.2
2748	2506.0
2754	2958.2
2761	3388.0
2767	3793.1
2780	4197.1
2786	4600.7
2793	5034.6
2799	5432.4
2812	5863.1
2818	6341.2
2825	6854.8
2831	7412.9
2838	7961.4
2851	8550.9
2858	9057.6
2864	9574.0
2871	10023
2884	10423
2891	10836
2897	11196
2904	11454
2917	11696
2924	11857
2931	11996
2938	11993
2951	12026
2958	11967
2965	11803
2979	11638
2985	11455
2999	11401
3048	9886.5
3097	7782.5
3148	5381.0
3199	3630.8
3251	2360.2
3304	1402.7
3350	979.43
3396	721.20
3451	481.02
3499	337.34
3548	240.45
3597	179.92
3648	145.85
3698	122.20
3750	114.00
3802	112.44
3846	115.34
3899	122.47
3954	132.12
3999	144.55
4046	157.37
4102	172.20
4150	188.34
4198	206.04
4246	224.93
4295	247.20
4345	269.17
4395	294.50
4446	322.21
4498	345.87
4550	375.89
4603	401.86
4645	418.79
4699	419.86
4753	410.33
4797	392.68
4853	373.13
4898	351.49
4955	332.74
5000	311.90
5047	293.80
5105	273.48
5152	258.79
5200	244.32
5248	237.15
5297	232.25
5346	232.26
5395	239.91
5445	248.79
5495	264.82
5546	285.04
5598	318.31
5649	369.05
5702	447.60
5754	542.05
5794	714.64
5848	928.94
5902	1324.3
5957	1823.9
5998	2239.7
6053	2595.1
6095	2698.8
6152	2394.0
6194	1782.5
6252	1396.3
6295	1137.7
6353	979.52
6397	881.04
6457	812.72
6501	758.70
6546	716.24
6607	677.67
6653	651.65
6699	632.35
6745	616.67
6808	603.95
6855	594.31
6902	586.26
6950	580.76
6998	574.09
7047	568.85
7096	566.16
7145	563.68
7194	559.84
7244	558.58
7295	554.68
7345	552.10
7396	550.84
7447	548.25
7499	545.79
7551	544.53
7603	541.96
7656	541.98
7691	540.82
7745	539.49
7798	539.53
7852	539.50
7907	539.56
7943	539.48
7998	538.29
8054	538.29
8091	538.31
8147	538.32
8204	538.25
8241	538.28
8299	539.51
8356	538.24
8395	539.48
8453	540.68
8492	540.71
8551	541.98
8590	543.32
8650	544.49
8710	545.79
8750	547.03
8790	549.55
8851	550.87
8892	553.42
8954	554.64
8995	557.14
9057	559.85
9099	562.37
9141	565.01
9204	566.33
9247	570.22
9290	572.72
9354	576.73
9397	579.44
9441	582.06
9506	586.15
9550	588.84
9594	594.26
9661	598.34
9705	603.91
9750	608.08
9795	613.76
9840	619.51
9908	625.15
9954	630.97
10000	638.25
10050	646.95
10090	656.34
10140	666.74
10210	714.47
10260	690.05
10300	713.11
10350	727.88
10400	748.06
10450	768.89
10500	792.16
10540	816.93
10590	841.55
10640	869.13
10690	899.51
10740	931.13
10790	965.94
10840	1002.3
10890	1035.1
10940	1071.5
10990	1106.6
11040	1137.7
11090	1177.3
11140	1221.7
11190	1267.9
11250	1309.1
11300	1354.5
11350	1406.1
11400	1456.2
11460	1502.3
11510	1552.5
11560	1600.1
11590	1648.0
11640	1694.9
11690	1742.5
11750	1794.6
11800	1854.1
11860	1909.3
11910	1967.8
11940	2028.1
11990	2085.7
12050	2143.1
12110	2191.6
12160	2249.8
12190	2307.1
12250	2354.3
12300	2410.1
12360	2460.4
12390	2511.2
12450	2551.6
12500	2606.8
12560	2642.3
12590	2684.9
12650	2721.9
12710	2759.5
12760	2793.9
12790	2832.6
12850	2864.3
12910	2897.8
12940	2925.0
13000	2957.9
13060	2985.7
13090	3013.4
13150	3041.7
13210	3069.8
13240	3091.3
13300	3113.2
13340	3132.2
13400	3153.8
13460	3176.1
13490	3191.4
13550	3214.4
13610	3222.4
13650	3235.0
13710	3250.2
13740	3266.0
13800	3274.5
13840	3287.8
13900	3296.2
13960	3312.6
14000	3317.5
14060	3326.6
14090	3334.7
14160	3334.2
14190	3342.2
14260	3340.7
14290	3349.6
14350	3350.4
14390	3356.9
14450	3358.6
14490	3357.1
14550	3366.6
14590	3372.8
14660	3372.2
14690	3373.0
14760	3372.3
14790	3373.1
14860	3372.5
14890	3374.1
14960	3373.4
15000	3372.0
15070	3372.2
15100	3372.9
15140	3364.0
15210	3364.2
15240	3365.0
15310	3365.3
15350	3356.5
15420	3356.7
15450	3357.5
15490	3357.0
15560	3350.0
15600	3348.6
15670	3348.9
15700	3342.5
15740	3342.0
15810	3335.1
15850	3333.9
15890	3325.5
15960	3326.6
16000	3318.3
16030	3312.1
16110	3302.7
16140	3304.3
16220	3295.8
16260	3287.7
16290	3281.6
16370	3273.2
16410	3265.3
16440	3266.9
16480	3259.0
16560	3250.1
16600	3242.3
16630	3236.4
16710	3228.4
16750	3220.7
16790	3213.1
16870	3205.3
16900	3192.2
16940	3184.6
16980	3177.1
17060	3169.6
17100	3162.2
17140	3147.5
17220	3140.1
17260	3132.9
17300	3118.3
17340	3111.2
17420	3096.9
17460	3089.8
17500	3075.5
17540	3068.5
17620	3054.6
17660	3047.7
17700	3034.4
17740	3027.5
17780	3013.7
17860	3007.2
17910	2991.8
17950	2985.1
17990	2971.5
18030	2964.9
18110	2951.8
18160	2943.7
18200	2930.3
18240	2923.9
18280	2910.6
18370	2896.4
18410	2890.1
18450	2877.7
18490	2864.6
18540	2850.1
18620	2837.9
18660	2825.7
18710	2811.5
18750	2798.8
18790	2792.8
18840	2779.4
18880	2766.9
18970	2753.7
19010	2735.4
19050	2723.0
19100	2710.0
19140	2698.4
19190	2684.8
19230	2673.4
19320	2660.9
19360	2648.9
19410	2636.3
19450	2624.4
19500	2606.1
19540	2594.9
19590	2581.9
19630	2570.9
19680	2558.6
19770	2547.0
19820	2528.5
19860	2512.0
19910	2494.3
19950	2483.7
20000	2471.8
20990	2285.8
21980	2127.9
23010	1981.9
23990	1823.9
25000	1686.9
26000	1559.7
26980	1445.3
27990	1342.8
28970	1253.2
29990	1180.4
30970	1132.5
31990	1099.1
33040	1076.4
33960	1059.4
34990	1047.3
35970	1044.9
36980	1042.6
38020	1054.4
38990	1069.1
39990	1081.6
41020	1098.9
41980	1119.2
42950	1135.2
43950	1150.8
44980	1166.7
46030	1180.2
46990	1194.1
47970	1199.5
48980	1199.4
50000	1199.6
52000	1202.3
53950	1183.0
55980	1158.8
57940	1135.0
59980	1101.6
61940	1064.3
63970	1030.5
66070	995.30
68080	961.49
69980	929.10
71940	897.50
73960	867.04
76030	839.47
77980	809.13
79980	779.94
82040	751.62
83950	724.34
85900	698.24
87900	674.49
89950	650.18
92040	628.04
93970	608.19
95940	587.45
97950	568.85
100000	550.78
109900	477.50
119900	436.73
130000	404.64
140000	377.44
150000	357.22
160000	340.31
169800	325.85
179900	314.75
190100	304.81
200000	295.12
209900	286.41
219800	278.60
230100	271.10
239900	264.84
250000	258.26
260000	251.76
269800	246.02
279900	240.42
289700	235.54
299900	230.67
319900	222.34
339600	214.80
359700	208.46
380200	202.77
399900	197.72
419800	193.17
439500	188.40
460300	183.65
479700	179.50
500000	175.80
520000	172.18
539500	168.66
559800	165.19
579400	162.19
599800	159.58
650100	153.11
699800	149.30
749900	146.21
799800	143.23
849200	140.59
899500	137.40
950600	133.65
1000000	130.94
1100000	127.95
1200000	124.72
1300000	121.89
1400000	119.38
1500000	116.70
1600000	114.04
1700000	111.69
1800000	109.40
1900000	106.95
2000000	104.93
2100000	102.80
2200000	100.70
2300000	98.837
2400000	97.023
2500000	95.052
2600000	93.329
2700000	91.828
2800000	90.164
2900000	88.528
3000000	87.085
3100000	85.532
3200000	84.116
3300000	82.786
3400000	81.275
3500000	79.994
3600000	78.714
3700000	77.640
3800000	76.390
3900000	75.173
4000000	74.142
4100000	72.946
4200000	71.927
4300000	70.810
4400000	69.829
4500000	68.696
4600000	67.776
4700000	66.842
4800000	65.921
4900000	65.012
5000000	64.114
5100000	63.251
5200000	62.373
5300000	61.528
5400000	60.668
5500000	59.976
5600000	59.152
5700000	58.356
5800000	57.675
5901000	56.880
6001000	56.225
6100000	55.457
6200000	54.826
6299000	54.084
6400000	53.466
6500000	52.721
6599000	52.120
6700000	51.522
6800000	50.820
6899000	50.236
7000000	49.655
7101000	49.090
7199000	48.527
7300000	47.976
7399000	47.317
7501000	46.774
7600000	46.231
7700000	45.712
7800000	45.191
7900000	44.666
8000000	44.155
8100000	43.656
8200000	43.155
8300000	42.756
8400000	42.262
8500000	41.779
8600000	41.308
8700000	40.833
8800000	40.455
8900000	40.001
9000000	39.542
9100000	39.080
9200000	38.724
9300000	38.280
9400000	37.846
9500000	37.501
9600000	37.071
9700000	36.727
9800000	36.301
9900000	35.897
10000000	35.563
11000000	32.067
12000000	29.039
13000000	26.418
14000000	24.100
15000000	22.033
16000000	20.232
17000000	18.620
18000000	17.181
19000000	15.853
20000000	14.690
21000000	13.643
22000000	12.703
23000000	11.856
24000000	11.064
25000000	10.375
26000000	9.7196
27000000	9.1269
28000000	8.5900
29000000	8.0945
30000000	7.6403
31000000	7.2196
32000000	6.8369
33000000	6.4774
34000000	6.1464
35000000	5.8416
36000000	5.5536
37000000	5.2881
38000000	5.0431
39000000	4.8107
40000000	4.5961
41000000	4.3952
42000000	4.2037
43000000	4.0271
44000000	3.8613
45000000	3.7057
46000000	3.5568
47000000	3.4170
48000000	3.2882
49000000	3.1621
50000000	3.0461
51000000	2.9346
52000000	2.8298
53000000	2.7314
54000000	2.6366
55000000	2.5475
56000000	2.4617
57000000	2.3810
58000000	2.3031
59010000	2.2296
60010000	2.1590
61000000	2.0930
62000000	2.0289
62990000	1.9684
64000000	1.9099
65000000	1.8538
65990000	1.8007
67000000	1.7495
68000000	1.7005
68990000	1.6535
70000000	1.6085
71010000	1.5653
71990000	1.5235
73000000	1.4835
73990000	1.4452
75010000	1.4082
76000000	1.3727
77000000	1.3384
78000000	1.3056
79000000	1.2737
80000000	1.2431
81000000	1.2135
82000000	1.1851
83000000	1.1575
84000000	1.1310
85000000	1.1052
86000000	1.0804
87000000	1.0564
88000000	1.0333
89000000	1.0108
89990000	0.98908
90990000	0.96799
92000000	0.94767
93000000	0.92788
93990000	0.90889
94990000	0.89032
96010000	0.87209
97010000	0.85468
97990000	0.83793
98990000	0.82147
100000000	0.80538
109900000	0.66834
119900000	0.56386
130000000	0.48168
140000000	0.41613
150000000	0.36334
160000000	0.31989
169800000	0.28396
179900000	0.25356
190100000	0.22793
200000000	0.20590
209900000	0.18697
219800000	0.17054
230100000	0.15619
239900000	0.14358
250000000	0.13240
260000000	0.12252
269800000	0.11369
279900000	0.10577
289700000	0.098640
299900000	0.092268
309700000	0.086508
319900000	0.081078
330400000	0.076372
339600000	0.071935
349900000	0.067914
359700000	0.064282
369800000	0.060827
380200000	0.057676
389900000	0.054823
399900000	0.052132
410200000	0.049659
419800000	0.047296
429500000	0.045204
439500000	0.043146
449800000	0.041292
460300000	0.039531
469900000	0.037841
479700000	0.036308
489800000	0.034841
500000000	0.033502
510500000	0.032222
520000000	0.030981
529700000	0.029844
539500032	0.028720
549500032	0.027740
559800000	0.026736
570200000	0.025829
579400000	0.024942
590200000	0.024102
599800000	0.023339
609500032	0.022535
619400000	0.021830
629500032	0.021180
639699968	0.020508
650099968	0.019910
660700032	0.019267
669900032	0.018749
680800000	0.018196
690200000	0.017661
699800000	0.017180
709600000	0.016710
719400000	0.016219
729500032	0.015812
739600000	0.015382
749900032	0.014963
760300032	0.014589
769100032	0.014223
779800000	0.013836
790700032	0.013490
799800000	0.013184
809100032	0.012852
820400000	0.012531
829900032	0.012245
839500032	0.011939
849200000	0.011668
859000000	0.011403
871000000	0.011142
879000000	0.010889
889200000	0.010666
899500032	0.010423
909900032	0.010185
920400000	0.0099777
929000000	0.0097717
939699968	0.0095508
950600000	0.0093540
959400000	0.0091622
970499968	0.0089745
979500032	0.0087907
990800000	0.0086295
1000000000	0.0084534
1099000064	0.0069990
1199000064	0.0058912
1300000000	0.0050236
1400000000	0.0043336
1500000000	0.0037749
1600000000	0.0033254
1698000000	0.0029447
1799000064	0.0026299
1900999936	0.0023606
2000000000	0.0021331
2099000064	0.0019361
2198000128	0.0017660
2300999936	0.0016149
2399000064	0.0014861
2500000000	0.0013677
2600000000	0.0012678
2697999872	0.0011747
2799000064	0.0010941
2896999936	0.0010185
2999000064	0.00095285
3096999936	0.00089348
3199000064	0.00083750
3304000000	0.00078882
3396000000	0.00074303
3499000064	0.00070140
3596999936	0.00066378
3697999872	0.00062798
3801999872	0.00059560
3899000064	0.00056628
3999000064	0.00053829
4102000128	0.00051160
4198000128	0.00048853
4295000064	0.00046550
4394999808	0.00044576
4497999872	0.00042549
4602999808	0.00040732
4698999808	0.00038991
4797000192	0.00037408
4897999872	0.00035893
5000000000	0.00034507
5104999936	0.00033182
5200000000	0.00031923
5296999936	0.00030769
5394999808	0.00029651
5495000064	0.00028586
5598000128	0.00027544
5702000128	0.00026600
5793999872	0.00025701
5902000128	0.00024826
5998000128	0.00024052
6095000064	0.00023277
6193999872	0.00022540
6295000064	0.00021779
6397000192	0.00021137
6501000192	0.00020509
6607000064	0.00019857
6698999808	0.00019321
6808000000	0.00018754
6902000128	0.00018198
6998000128	0.00017702
7096000000	0.00017178
7193999872	0.00016711
7295000064	0.00016292
7395999744	0.00015849
7498999808	0.00015417
7602999808	0.00015032
7690999808	0.00014622
7798000128	0.00014257
7906999808	0.00013900
7998000128	0.00013553
8090999808	0.00013244
8204000256	0.00012911
8298999808	0.00012618
8394999808	0.00012301
8492000256	0.00012022
8590000128	0.00011749
8709999616	0.00011481
8789999616	0.00011221
8892000256	0.00010965
8995000320	0.00010740
9098999808	0.00010496
9203999744	0.00010281
9290000384	0.00010069
9397000192	9.8410e-05
9505999872	9.6383e-05
9594000384	9.4411e-05
9704999936	9.2477e-05
9795000320	9.0575e-05
9907999744	8.8921e-05
10000000000	8.7097e-05
